Folder: polarization-foils-XR/20220926_XRR/20210729-1-5 2

File: 20210729-1_pre_2θ_ω.asc
*TYPE		=  Raw
*CLASS		=  ASCII CLASS
*SAMPLE		=  1V041101 S45C 25m VS600 120mA 150V -30deg phi440(4t) ellpse
*COMMENT	=
*FNAME		=  20210729-1_pre_2θ_ω.asc
*DATE		=  29-Jul-21 10:09

*GROUP_COUNT	=  1
*GONIO		=  SmartLab(In-plane), 0.000000
*ATTACHMENT	=  χφZクレードル
*ASC		=  0, 0, 0.000000, 0.000000
*I_MONOCHRO	=  Ge(220)x2, 0.000000
*FILTER		=  None
*C_MONOCHRO	=  None, 0.000000
*SLIT_NAME	=  0, 入射スリット
*SLIT_NAME	=  1, 受光スリット1
*SLIT_NAME	=  2, 受光スリット2
*COUNTER	=  SC-70, 0
*POS_FORMAT	=  0
*SCAN_AXIS	=  2Theta/Omega
*MEAS_MODE	=  Continuous Scanning
*TARGET		=  29
*XRAY_CHAR	=  K-ALPHA1
*WAVE_LENGTH1	=  1.54059
*WAVE_LENGTH2	=  1.54441
*THICKNESS	=  0, 0.000000
*MU		=  0, 0.000000
*SCAN_MODE	=  2Theta/Omega
*SPEED_DIM	=  sec./step
*XUNIT		=  deg.
*YUNIT		=  counts
*SCALE_MODE	=  1
*REP_COUNT	=  0
*SE_COUNT	=  0
*STD_MATERIAL	=  Unknown, Unknown, 0.000000, 0.000000, 0.000000, 0.000000, 0.000000, 0.000000
*LATT_CONS	=  0, Unknown, Unknown, 0.000000, 0.000000, 0.000000, 0.000000, 0.000000, 0.000000
*SEC_COUNT	=  1
*TSPEC_SIZE	=  0
*EXTRA_SIZE	=  0
*MEMO		=  600 120mA 150V -30deg phi440(4t) ellpse

*BEGIN
*GROUP		=  0
*START		=  0.000000
*STOP		=  6
*STEP		=  0.004
*OFFSET		=  0.000000
*SPEED		=  0.08
*SLIT_SPEC	=  0, 0.100mm, 0.1, 0.000000
*SLIT_SPEC	=  1, 0.200mm, 0.2, 0.000000
*SLIT_SPEC	=  2, 0.200mm, 0.2, 0.000000
*KV		=  45
*MA		=  200
*LOW		=  0.000000
*HIGH		=  0.000000
*CTEMPER	=  0, 0.000000
*CTEMPER	=  1, 0.000000
*CTEMPER	=  2, 0.000000
*PAREX		=  0, 0.000000
*PAREX		=  1, 0.000000
*PAREX		=  2, 0.000000
*PAREX		=  3, 0.000000
*PAREX		=  4, 0.000000
*PAREX		=  5, 0.000000
*PAREX		=  6, 0.000000
*PAREX		=  7, 0.000000
*PAREX		=  8, 0.000000
*PAREX		=  9, 0.000000
*PAREX		=  10, 0.000000
*PAREX		=  11, 0.000000
*PAREX		=  12, 0.000000
*PAREX		=  13, 0.000000
*PAREX		=  14, 0.000000
*PAREX		=  15, 0.000000
*FULL_SCALE	=  49413032
*INDEX		=  0, 0, 0
*COUNT		=  1501
3294202.3, 3111609.8, 3001049.3, 2853635
474070, 315942, 186355, 153557
151203, 160834, 167094, 173086
219421, 222791, 225199, 240769
275226, 292133, 292400, 295129
333652, 353021, 353342, 364738
402031, 411768, 418349, 423111
463560, 472442, 490366, 491864
527926, 538573, 542533, 539643
579022, 598712, 600478, 605775
636379, 647882, 656604, 662757
694164, 691060, 701761, 710429
727015, 744939, 746223, 761579
778807, 790525, 780626, 790150
810535, 831669, 837448, 845687
855800, 855479, 863611, 871209
854088, 882926, 876238, 890417
898871, 894590, 893413, 893467
903472, 910320, 907217, 909839
905184, 897640, 903204, 897372
873296, 859384, 861418, 848416
827817, 829101, 806094, 789455
710643, 703794, 677845, 672120
563506, 530548, 511286, 488493
371319, 348259, 335364, 314070
225306, 223166, 210646, 198554
146602, 143498, 131085, 123113
93578.8, 87265.4, 83199, 78009.1
71374.6, 68217.9, 60352.7, 60352.7
45104, 39807.1, 37934.5, 35098.8
28196.7, 28464.2, 27715.2, 29694.8
25628.5, 26163.6, 26859.1, 21669.2
12413, 13697.1, 12359.5, 12573.5
9383, 9676, 10023, 10200
11218, 11150, 10847, 10168
6694, 5746, 5147, 4251
2266, 2272, 2203, 2279
3610, 3867, 4081, 4057
3559, 3277, 2991, 2589
1014, 687, 564, 445
589, 671, 858, 938
1371, 1387, 1424, 1299
887, 682, 629, 514
310, 305, 332, 411
608, 644, 663, 723
495, 493, 422, 401
269, 277, 314, 345
690, 781, 865, 895
939, 923, 830, 795
396, 296, 221, 173
257, 369, 433, 508
1174, 1192, 1256, 1333
1316, 1158, 1137, 1051
496, 367, 306, 212
286, 361, 473, 612
1225, 1313, 1404, 1499
1461, 1499, 1385, 1250
670, 551, 465, 336
234, 291, 389, 447
1093, 1140, 1311, 1410
1633, 1656, 1509, 1432
905, 795, 704, 601
242, 230, 265, 286
759, 937, 1000, 1119
1477, 1501, 1487, 1488
1085, 1011, 867, 790
294, 250, 234, 202
436, 549, 654, 744
1159, 1291, 1342, 1320
1137, 1158, 999, 999
468, 432, 303, 290
235, 276, 353, 426
817, 891, 960, 1044
1186, 1154, 1088, 1099
648, 604, 478, 405
188, 198, 175, 189
440, 538, 577, 684
918, 938, 1032, 965
828, 754, 670, 606
265, 250, 194, 154
203, 259, 297, 349
634, 746, 713, 741
771, 773, 738, 632
392, 307, 304, 230
109, 115, 131, 175
328, 396, 435, 470
614, 661, 645, 649
502, 455, 372, 366
140, 130, 90, 86
157, 172, 189, 248
403, 445, 484, 480
437, 421, 443, 364
217, 198, 170, 118
63, 77, 84, 87
190, 244, 264, 288
384, 356, 369, 341
283, 254, 230, 144
61, 57, 53, 51
85, 115, 136, 169
258, 245, 266, 253
234, 228, 202, 178
72, 89, 72, 46
34, 48, 35, 48
109, 127, 133, 147
172, 197, 182, 176
114, 90, 89, 74
28, 16, 10, 23
39, 39, 55, 52
117, 100, 118, 117
81, 97, 87, 78
30, 27, 30, 11
16, 13, 16, 23
50, 56, 59, 61
66, 67, 59, 71
34, 42, 36, 22
8, 5, 8, 3
12, 23, 25, 35
39, 43, 53, 38
42, 31, 34, 27
6, 12, 7, 13
8, 9, 9, 10
24, 22, 26, 27
24, 27, 12, 27
9, 10, 19, 10
11, 5, 10, 6
11, 12, 14, 7
11, 10, 13, 6
21, 8, 10, 16
9, 10, 7, 8
7, 14, 7, 8
10, 5, 8, 10
6, 6, 4, 6
10, 6, 7, 10
8, 7, 6, 9
9, 6, 7, 8
6, 3, 1, 6
3, 2, 3, 3
5, 9, 10, 9
7, 10, 10, 15
5, 9, 6, 9
3, 3, 2, 6
4, 4, 6, 19
13, 15, 7, 9
6, 8, 9, 3
3, 4, 2, 1
4, 2, 4, 1
9, 13, 11, 15
18, 12, 12, 9
2, 5, 2, 0.000000
0.000000, 1, 2, 2
2, 3, 7, 6
12, 5, 8, 6
8, 4, 4, 5
2, 0.000000, 0.000000, 3
0.000000, 2, 2, 3
7, 4, 7, 10
9, 8, 8, 6
4, 5, 6, 2
3, 0.000000, 1, 3
0.000000, 0.000000, 5, 4
8, 5, 5, 8
4, 6, 6, 0.000000
3, 2, 3, 0.000000
1, 3, 3, 1
5, 2, 3, 1
3, 5, 4, 5
4, 3, 7, 0.000000
1, 2, 2, 1
4, 3, 5, 4
5, 3, 5, 3
1, 2, 3, 4
4, 0.000000, 0.000000, 1
2, 1, 3, 2
2, 4, 0.000000, 4
2, 4, 1, 3
2, 2, 1, 2
1, 1, 0.000000, 1
2, 0.000000, 1, 3
2, 2, 5, 3
2, 8, 2, 1
2, 0.000000, 1, 1
0.000000, 2, 3, 0.000000
2, 0.000000, 0.000000, 1
3, 3, 2, 2
2, 0.000000, 0.000000, 0.000000
1, 0.000000, 1, 0.000000
0.000000, 0.000000, 2, 1
2, 0.000000, 1, 2
3
*END

*EOF

File: 20210729-2_pre_2θ_ω.asc
*TYPE		=  Raw
*CLASS		=  ASCII CLASS
*SAMPLE		=  1V020301 18.5m VSM
*COMMENT	=
*FNAME		=  20210729-2_pre_2θ_ω.asc
*DATE		=  29-Jul-21 10:25

*GROUP_COUNT	=  1
*GONIO		=  SmartLab(In-plane), 0.000000
*ATTACHMENT	=  χφZクレードル
*ASC		=  0, 0, 0.000000, 0.000000
*I_MONOCHRO	=  Ge(220)x2, 0.000000
*FILTER		=  None
*C_MONOCHRO	=  None, 0.000000
*SLIT_NAME	=  0, 入射スリット
*SLIT_NAME	=  1, 受光スリット1
*SLIT_NAME	=  2, 受光スリット2
*COUNTER	=  SC-70, 0
*POS_FORMAT	=  0
*SCAN_AXIS	=  2Theta/Omega
*MEAS_MODE	=  Continuous Scanning
*TARGET		=  29
*XRAY_CHAR	=  K-ALPHA1
*WAVE_LENGTH1	=  1.54059
*WAVE_LENGTH2	=  1.54441
*THICKNESS	=  0, 0.000000
*MU		=  0, 0.000000
*SCAN_MODE	=  2Theta/Omega
*SPEED_DIM	=  sec./step
*XUNIT		=  deg.
*YUNIT		=  counts
*SCALE_MODE	=  1
*REP_COUNT	=  0
*SE_COUNT	=  0
*STD_MATERIAL	=  Unknown, Unknown, 0.000000, 0.000000, 0.000000, 0.000000, 0.000000, 0.000000
*LATT_CONS	=  0, Unknown, Unknown, 0.000000, 0.000000, 0.000000, 0.000000, 0.000000, 0.000000
*SEC_COUNT	=  1
*TSPEC_SIZE	=  0
*EXTRA_SIZE	=  0
*MEMO		=  600 120mA 150V -30deg phi440(4t) ellpse

*BEGIN
*GROUP		=  0
*START		=  0.000000
*STOP		=  6
*STEP		=  0.004
*OFFSET		=  0.000000
*SPEED		=  0.08
*SLIT_SPEC	=  0, 0.100mm, 0.1, 0.000000
*SLIT_SPEC	=  1, 0.200mm, 0.2, 0.000000
*SLIT_SPEC	=  2, 0.200mm, 0.2, 0.000000
*KV		=  45
*MA		=  200
*LOW		=  0.000000
*HIGH		=  0.000000
*CTEMPER	=  0, 0.000000
*CTEMPER	=  1, 0.000000
*CTEMPER	=  2, 0.000000
*PAREX		=  0, 0.000000
*PAREX		=  1, 0.000000
*PAREX		=  2, 0.000000
*PAREX		=  3, 0.000000
*PAREX		=  4, 0.000000
*PAREX		=  5, 0.000000
*PAREX		=  6, 0.000000
*PAREX		=  7, 0.000000
*PAREX		=  8, 0.000000
*PAREX		=  9, 0.000000
*PAREX		=  10, 0.000000
*PAREX		=  11, 0.000000
*PAREX		=  12, 0.000000
*PAREX		=  13, 0.000000
*PAREX		=  14, 0.000000
*PAREX		=  15, 0.000000
*FULL_SCALE	=  46234416
*INDEX		=  0, 0, 0
*COUNT		=  1501
2988485.5, 3082294.5, 2881275.3, 2692819.8
510086, 347082, 233760, 198982
214980, 222738, 245370, 253182
308826, 314872, 330067, 353128
402298, 410645, 422523, 439109
502511, 511019, 521345, 521666
596197, 607326, 622147, 641783
701601, 712462, 712676, 730546
792076, 800423, 811124, 827068
883675, 908234, 900743, 911765
974633, 989132, 1003043.3, 1003150.3
1064573.1, 1068853.4, 1071742.6, 1095017
1137927.4, 1153711.1, 1156279.3, 1157349.4
1223320, 1224711.1, 1226423.3, 1256653.1
1268905.6, 1292072.9, 1300205.6, 1303041.3
1346219.1, 1331077.5, 1349375.9, 1350232
1403575.6, 1419466.4, 1377733.1, 1410424.3
1421178.5, 1419627, 1407374.5, 1422997.8
1431290.9, 1450766.4, 1445469.5, 1440119
1446860.6, 1430113.8, 1426101, 1427010.5
1381906.5, 1376074.5, 1379177.8, 1371045.1
1321232.8, 1286669, 1281800.1, 1255155
1162485.8, 1144133.9, 1137552.8, 1093411.9
937608, 917276, 875168, 837608
668910, 643388, 597000, 570729
428087, 412357, 387103, 361474
289458, 278917, 260458, 258158
203209, 190528, 181968, 178758
134777, 121776, 118833, 117977
102086, 104119, 101818, 96682.1
86783.8, 84162.1, 77848.6, 75119.9
52220.1, 53397.2, 45425.1, 45960.1
38897.6, 38041.5, 39539.6, 41572.8
43980.5, 41091.2, 39967.6, 41679.8
33440.1, 31835, 26698.6, 24451.4
15783.7, 14874.2, 13055, 12787.5
14767.2, 15676.7, 16372.3, 18137.9
18673, 20492.1, 19154.5, 18405.4
13001.5, 12948, 12627, 10692
5295, 4765, 4166, 3982
4854, 5429, 5979, 6559
9113, 9213, 9375, 9236
7795, 7176, 6422, 5750
2567, 2077, 1650, 1332
942, 1185, 1440, 1700
3267, 3607, 3691, 3936
3960, 3887, 3607, 3367
1814, 1514, 1312, 1014
326, 334, 329, 395
1033, 1191, 1324, 1511
1908, 1977, 1747, 1849
1253, 1105, 943, 873
412, 338, 314, 333
556, 635, 708, 801
1185, 1161, 1186, 1217
937, 845, 788, 735
316, 249, 228, 200
358, 438, 458, 580
927, 970, 1014, 1125
1042, 1039, 930, 924
455, 340, 301, 300
113, 108, 161, 189
545, 628, 694, 734
1018, 1058, 1031, 1129
920, 798, 756, 716
313, 237, 182, 147
91, 116, 174, 221
540, 644, 673, 756
987, 981, 949, 923
768, 710, 647, 580
252, 178, 165, 122
113, 111, 146, 187
504, 534, 605, 644
814, 761, 832, 803
724, 611, 582, 483
237, 164, 150, 116
83, 115, 142, 121
393, 435, 487, 547
688, 730, 727, 747
646, 553, 544, 481
269, 204, 169, 127
65, 92, 96, 118
291, 344, 384, 440
595, 583, 658, 608
602, 592, 509, 511
279, 235, 185, 143
86, 83, 110, 106
249, 257, 269, 346
504, 515, 566, 593
557, 535, 516, 507
278, 245, 212, 187
94, 88, 77, 103
176, 235, 260, 249
413, 461, 477, 476
522, 494, 459, 467
296, 294, 236, 165
87, 79, 81, 77
131, 152, 177, 184
327, 353, 381, 365
440, 421, 399, 385
241, 233, 224, 203
94, 80, 63, 67
93, 128, 115, 126
231, 256, 281, 293
331, 335, 337, 307
229, 248, 182, 178
81, 68, 59, 71
50, 50, 71, 91
173, 161, 217, 221
269, 271, 274, 234
190, 194, 173, 175
85, 68, 57, 61
27, 42, 49, 34
106, 118, 151, 129
181, 173, 198, 221
175, 188, 162, 145
90, 70, 61, 53
22, 18, 19, 19
60, 72, 80, 81
140, 141, 150, 128
126, 121, 112, 122
73, 64, 46, 45
16, 14, 14, 14
28, 39, 65, 44
90, 75, 93, 100
96, 107, 113, 104
62, 66, 59, 49
20, 15, 19, 9
13, 25, 27, 36
68, 58, 64, 67
60, 83, 57, 74
48, 44, 40, 35
18, 14, 7, 6
8, 12, 13, 9
21, 40, 30, 43
56, 36, 60, 45
49, 45, 30, 24
11, 8, 10, 10
4, 1, 4, 6
16, 13, 18, 27
34, 38, 34, 31
35, 19, 30, 20
6, 8, 5, 3
1, 1, 2, 7
11, 16, 14, 15
26, 24, 16, 13
16, 15, 18, 18
7, 6, 6, 3
4, 4, 4, 2
8, 6, 2, 5
12, 15, 5, 10
16, 10, 7, 12
11, 4, 6, 6
4, 5, 7, 2
3, 1, 1, 2
6, 6, 10, 3
5, 5, 9, 8
7, 7, 5, 3
7, 6, 4, 5
3, 1, 3, 3
2, 2, 7, 3
3, 1, 3, 2
4, 5, 4, 4
6, 1, 6, 5
3, 7, 6, 4
3, 2, 5, 2
2, 2, 3, 4
4, 1, 4, 0.000000
4, 1, 4, 5
1, 3, 1, 7
1, 1, 3, 2
0.000000, 1, 3, 0.000000
2, 3, 3, 2
3, 5, 5, 0.000000
1, 4, 4, 6
2, 1, 4, 1
1, 0.000000, 4, 1
1, 1, 2, 1
3, 2, 3, 1
2, 4, 4, 8
6, 4, 4, 6
7, 2, 2, 2
1, 4, 0.000000, 0.000000
6, 3, 0.000000, 1
1, 4, 4, 2
6, 8, 4, 5
3, 2, 2, 3
0.000000, 1, 0.000000, 3
0.000000
*END

*EOF

File: 20210729-3_pre_2θ_ω.asc
*TYPE		=  Raw
*CLASS		=  ASCII CLASS
*SAMPLE		=  1V090203 Fe35h VSM
*COMMENT	=
*FNAME		=  20210729-3_pre_2θ_ω.asc
*DATE		=  29-Jul-21 10:48

*GROUP_COUNT	=  1
*GONIO		=  SmartLab(In-plane), 0.000000
*ATTACHMENT	=  χφZクレードル
*ASC		=  0, 0, 0.000000, 0.000000
*I_MONOCHRO	=  Ge(220)x2, 0.000000
*FILTER		=  None
*C_MONOCHRO	=  None, 0.000000
*SLIT_NAME	=  0, 入射スリット
*SLIT_NAME	=  1, 受光スリット1
*SLIT_NAME	=  2, 受光スリット2
*COUNTER	=  SC-70, 0
*POS_FORMAT	=  0
*SCAN_AXIS	=  2Theta/Omega
*MEAS_MODE	=  Continuous Scanning
*TARGET		=  29
*XRAY_CHAR	=  K-ALPHA1
*WAVE_LENGTH1	=  1.54059
*WAVE_LENGTH2	=  1.54441
*THICKNESS	=  0, 0.000000
*MU		=  0, 0.000000
*SCAN_MODE	=  2Theta/Omega
*SPEED_DIM	=  sec./step
*XUNIT		=  deg.
*YUNIT		=  counts
*SCALE_MODE	=  1
*REP_COUNT	=  0
*SE_COUNT	=  0
*STD_MATERIAL	=  Unknown, Unknown, 0.000000, 0.000000, 0.000000, 0.000000, 0.000000, 0.000000
*LATT_CONS	=  0, Unknown, Unknown, 0.000000, 0.000000, 0.000000, 0.000000, 0.000000, 0.000000
*SEC_COUNT	=  1
*TSPEC_SIZE	=  0
*EXTRA_SIZE	=  0
*MEMO		=

*BEGIN
*GROUP		=  0
*START		=  0.000000
*STOP		=  6
*STEP		=  0.004
*OFFSET		=  0.000000
*SPEED		=  0.08
*SLIT_SPEC	=  0, 0.100mm, 0.1, 0.000000
*SLIT_SPEC	=  1, 0.200mm, 0.2, 0.000000
*SLIT_SPEC	=  2, 0.200mm, 0.2, 0.000000
*KV		=  45
*MA		=  200
*LOW		=  0.000000
*HIGH		=  0.000000
*CTEMPER	=  0, 0.000000
*CTEMPER	=  1, 0.000000
*CTEMPER	=  2, 0.000000
*PAREX		=  0, 0.000000
*PAREX		=  1, 0.000000
*PAREX		=  2, 0.000000
*PAREX		=  3, 0.000000
*PAREX		=  4, 0.000000
*PAREX		=  5, 0.000000
*PAREX		=  6, 0.000000
*PAREX		=  7, 0.000000
*PAREX		=  8, 0.000000
*PAREX		=  9, 0.000000
*PAREX		=  10, 0.000000
*PAREX		=  11, 0.000000
*PAREX		=  12, 0.000000
*PAREX		=  13, 0.000000
*PAREX		=  14, 0.000000
*PAREX		=  15, 0.000000
*FULL_SCALE	=  35454760
*INDEX		=  0, 0, 0
*COUNT		=  1501
2363650.8, 2345224, 2273192, 2085574.3
407901, 245584, 104387, 58159.1
16532.8, 16746.8, 16318.8, 15890.7
16960.8, 20010.6, 20599.1, 19368.5
23434.8, 24130.4, 25896, 25468
30871.9, 29427.3, 27554.7, 32637.6
31942, 32798.1, 34028.7, 36061.8
39967.6, 38309, 40770.2, 44248
46013.6, 46602.2, 48956.3, 47297.7
50882.5, 51203.5, 51899.1, 53236.7
54467.3, 58694.1, 54199.8, 58801.1
58480.1, 57142.5, 62492.9, 63509.5
67147.8, 63777, 63937.5, 65328.6
67843.3, 68645.9, 70732.6, 75922.5
73996.3, 72230.7, 72872.7, 75280.4
74477.8, 75547.9, 77795.1, 78116.1
76992.5, 80256.3, 81593.9, 79453.7
78490.7, 79507.2, 83627.1, 82664
79774.8, 76725, 81647.4, 81807.9
81005.4, 79239.7, 83306, 81165.9
83894.6, 80791.3, 78972.2, 79721.3
74905.9, 77955.6, 76992.5, 74531.4
65435.6, 65917.2, 62118.4, 60887.8
51578, 52701.6, 51685.1, 50882.5
37934.5, 35366.3, 34617.2, 33012.1
22632.3, 21187.7, 19850.1, 19208
14874.2, 14660.2, 12734, 12894.5
10119, 9587, 9258, 8558
6822, 6403, 6146, 5922
4828, 4392, 4357, 4215
3240, 3211, 2998, 2956
2358, 2295, 2164, 2100
1766, 1662, 1542, 1464
1281, 1194, 1188, 1062
965, 871, 847, 823
684, 602, 591, 569
467, 457, 430, 445
349, 312, 302, 270
280, 215, 186, 236
165, 180, 151, 162
114, 129, 115, 96
88, 87, 71, 68
58, 54, 56, 59
42, 34, 36, 29
19, 23, 30, 21
13, 18, 16, 10
8, 9, 13, 7
9, 10, 2, 15
4, 2, 7, 3
3, 8, 1, 3
3, 1, 3, 6
1, 6, 4, 1
3, 7, 4, 8
8, 6, 4, 2
3, 0.000000, 7, 5
6, 4, 6, 3
1, 3, 3, 5
3, 5, 4, 6
2, 2, 4, 3
6, 5, 6, 2
5, 9, 10, 5
5, 5, 6, 7
6, 5, 7, 3
4, 7, 4, 4
6, 8, 2, 1
6, 7, 2, 7
4, 7, 6, 2
4, 6, 7, 3
6, 3, 2, 2
3, 6, 4, 5
4, 7, 0.000000, 8
1, 4, 3, 7
5, 8, 7, 1
4, 5, 7, 2
6, 4, 6, 7
5, 2, 1, 6
6, 5, 3, 3
5, 10, 3, 2
2, 6, 12, 3
4, 6, 2, 2
8, 6, 4, 2
3, 8, 4, 2
2, 4, 0.000000, 9
4, 4, 6, 5
8, 3, 4, 3
4, 5, 5, 6
4, 2, 4, 2
3, 3, 3, 4
2, 2, 3, 7
4, 1, 5, 0.000000
2, 3, 4, 3
2, 2, 2, 5
4, 5, 2, 1
3, 3, 4, 7
5, 4, 4, 1
5, 4, 2, 3
1, 1, 2, 3
4, 4, 6, 5
6, 3, 2, 2
2, 0.000000, 1, 0.000000
1, 2, 0.000000, 2
2, 3, 3, 2
5, 3, 6, 3
1, 2, 3, 1
3, 2, 2, 1
2, 4, 2, 1
3, 2, 4, 4
5, 2, 3, 2
0.000000, 1, 1, 2
2, 1, 3, 2
2, 1, 1, 1
3, 3, 5, 3
3, 6, 4, 7
6, 3, 0.000000, 1
1, 2, 0.000000, 3
3, 5, 3, 4
5, 3, 2, 6
1, 3, 5, 1
2, 1, 0.000000, 5
2, 1, 6, 2
3, 3, 4, 2
4, 3, 2, 0.000000
1, 2, 3, 2
5, 4, 2, 3
4, 1, 2, 6
2, 3, 2, 1
2, 0.000000, 2, 5
3, 1, 4, 4
2, 4, 2, 4
2, 2, 4, 1
8, 3, 3, 2
5, 3, 1, 2
4, 5, 4, 0.000000
2, 0.000000, 4, 3
3, 1, 2, 2
0.000000, 3, 3, 1
2, 2, 1, 0.000000
1, 5, 1, 2
4, 3, 1, 3
0.000000, 0.000000, 3, 3
2, 2, 3, 4
2, 3, 2, 1
0.000000, 3, 1, 2
2, 1, 3, 4
1, 4, 3, 4
1, 3, 1, 3
1, 3, 1, 5
1, 2, 7, 4
4, 0.000000, 0.000000, 0.000000
2, 3, 2, 1
1, 4, 1, 3
1, 3, 2, 1
0.000000, 2, 1, 2
6, 5, 1, 1
1, 2, 2, 1
1, 3, 4, 1
2, 3, 3, 2
0.000000, 2, 1, 2
1, 2, 2, 3
3, 0.000000, 0.000000, 4
0.000000, 4, 3, 1
2, 1, 2, 2
7, 5, 2, 5
3, 7, 2, 1
4, 1, 2, 3
2, 0.000000, 2, 2
0.000000, 3, 2, 2
3, 2, 0.000000, 1
2, 3, 1, 0.000000
2, 3, 3, 4
3, 2, 3, 2
4, 2, 5, 1
2, 2, 2, 3
5, 2, 1, 1
2, 1, 8, 1
2, 3, 4, 1
3, 0.000000, 2, 3
2, 1, 2, 0.000000
2, 2, 2, 0.000000
1, 1, 1, 2
2, 1, 2, 3
0.000000, 1, 0.000000, 1
3, 3, 0.000000, 3
3, 2, 1, 0.000000
2, 3, 2, 3
2, 1, 1, 2
3, 3, 1, 4
5, 4, 2, 0.000000
0.000000
*END

*EOF

File: 20210729-4_2θ_ω.asc
*TYPE		=  Raw
*CLASS		=  ASCII CLASS
*SAMPLE		=  2V022501 Fe20m VSM
*COMMENT	=
*FNAME		=  20210729-4_2θ_ω.asc
*DATE		=  29-Jul-21 11:36

*GROUP_COUNT	=  1
*GONIO		=  SmartLab(In-plane), 0.000000
*ATTACHMENT	=  χφZクレードル
*ASC		=  0, 0, 0.000000, 0.000000
*I_MONOCHRO	=  Ge(220)x2, 0.000000
*FILTER		=  None
*C_MONOCHRO	=  None, 0.000000
*SLIT_NAME	=  0, 入射スリット
*SLIT_NAME	=  1, 受光スリット1
*SLIT_NAME	=  2, 受光スリット2
*COUNTER	=  SC-70, 0
*POS_FORMAT	=  0
*SCAN_AXIS	=  2Theta/Omega
*MEAS_MODE	=  Continuous Scanning
*TARGET		=  29
*XRAY_CHAR	=  K-ALPHA1
*WAVE_LENGTH1	=  1.54059
*WAVE_LENGTH2	=  1.54441
*THICKNESS	=  0, 0.000000
*MU		=  0, 0.000000
*SCAN_MODE	=  2Theta/Omega
*SPEED_DIM	=  sec./step
*XUNIT		=  deg.
*YUNIT		=  counts
*SCALE_MODE	=  1
*REP_COUNT	=  0
*SE_COUNT	=  0
*STD_MATERIAL	=  Unknown, Unknown, 0.000000, 0.000000, 0.000000, 0.000000, 0.000000, 0.000000
*LATT_CONS	=  0, Unknown, Unknown, 0.000000, 0.000000, 0.000000, 0.000000, 0.000000, 0.000000
*SEC_COUNT	=  1
*TSPEC_SIZE	=  0
*EXTRA_SIZE	=  0
*MEMO		=

*BEGIN
*GROUP		=  0
*START		=  0.000000
*STOP		=  6
*STEP		=  0.004
*OFFSET		=  0.000000
*SPEED		=  0.6
*SLIT_SPEC	=  0, 0.100mm, 0.1, 0.000000
*SLIT_SPEC	=  1, 0.200mm, 0.2, 0.000000
*SLIT_SPEC	=  2, 0.200mm, 0.2, 0.000000
*KV		=  45
*MA		=  200
*LOW		=  0.000000
*HIGH		=  0.000000
*CTEMPER	=  0, 0.000000
*CTEMPER	=  1, 0.000000
*CTEMPER	=  2, 0.000000
*PAREX		=  0, 0.000000
*PAREX		=  1, 0.000000
*PAREX		=  2, 0.000000
*PAREX		=  3, 0.000000
*PAREX		=  4, 0.000000
*PAREX		=  5, 0.000000
*PAREX		=  6, 0.000000
*PAREX		=  7, 0.000000
*PAREX		=  8, 0.000000
*PAREX		=  9, 0.000000
*PAREX		=  10, 0.000000
*PAREX		=  11, 0.000000
*PAREX		=  12, 0.000000
*PAREX		=  13, 0.000000
*PAREX		=  14, 0.000000
*PAREX		=  15, 0.000000
*FULL_SCALE	=  39305956
*INDEX		=  0, 0, 0
*COUNT		=  1501
19377414, 19652978, 19085936, 17999594
3443291.5, 2094047.4, 1466336.1, 1266604.9
1379284.8, 1449214.8, 1512082.3, 1586025
1975161, 2065101.6, 2158359.5, 2239311.3
2651721.8, 2728072.3, 2811966.8, 2885642
3323360, 3403830.3, 3484889, 3569693.3
3984243.8, 4049840, 4148020, 4245879.5
4651387.5, 4707406.5, 4808743.5, 4866046.5
5284289, 5371928.5, 5434528.5, 5555020
5927356, 5984766, 6098408.5, 6150896.5
6539872, 6617506.5, 6685831.5, 6789790
7150622.5, 7221194.5, 7313114.5, 7338529
7729912.5, 7804015.5, 7891174, 7926379.5
8295665.5, 8346762, 8352915, 8460619
8709628, 8836754, 8892291, 9018454
9232899, 9273883, 9331132, 9360078
9635625, 9679712, 9675004, 9776662
9895120, 9994478, 9946645, 10007051
10123048, 10136157, 10145306, 10216788
10152475, 10166494, 10110421, 10131983
9983991, 9977196, 9915345, 9857293
9554245, 9481747, 9400367, 9304487
8707862, 8556445, 8354788, 8239112
7214399.5, 7030345, 6740619.5, 6531739
5231052, 4988143, 4713024.5, 4465621
3440159.5, 3264077.3, 3122879.8, 2993025
2533691.5, 2516944.5, 2422830.8, 2367400.3
2025776, 1943647.1, 1856328.3, 1759004.1
1271099.3, 1171099.9, 1084530.1, 995874
649809, 603099, 561099, 530173
463988, 467092, 479879, 497803
559012, 581270, 597535, 606417
613800, 620970, 606310, 592399
488868, 472121, 428087, 404545
255001, 236435, 205831, 182235
95772.5, 80898.4, 75054, 68258
61657, 65305, 70803, 77108
119100, 129415, 138717, 146001
181684, 186679, 189879, 192655
187607, 183924, 178972, 173354
135495, 126057, 116757, 108061
63439, 55651, 48017, 41021
13934, 11027, 7954, 5994
4306, 5637, 7170, 9300
23217, 26551, 30268, 33196
47957, 49822, 51896, 54231
58826, 58141, 57927, 57156
50203, 48458, 46057, 44031
31093, 28423, 25919, 23824
13052, 11670, 9757, 8554
4283, 3847, 3729, 3661
5371, 5974, 6805, 7460
11861, 12637, 13149, 14021
16696, 17291, 17552, 17849
17583, 17291, 16904, 16801
14395, 13665, 13191, 12353
9396, 9025, 8243, 7844
6038, 5822, 5548, 5380
5314, 5245, 5290, 5389
6298, 6431, 6760, 6913
7675, 7602, 7783, 7769
7696, 7530, 7352, 7256
6364, 5997, 5827, 5558
4262, 4027, 3819, 3606
2825, 2678, 2632, 2442
2603, 2758, 2813, 2935
3789, 3813, 4078, 4180
5037, 5235, 5284, 5333
5809, 5792, 5650, 5776
5288, 5017, 4961, 4652
3726, 3493, 3319, 2969
1975, 1760, 1551, 1410
730, 695, 639, 619
700, 798, 914, 1053
1731, 1989, 2043, 2294
3247, 3240, 3520, 3625
4297, 4249, 4271, 4366
4270, 4309, 4187, 4111
3369, 3215, 2985, 2830
1963, 1790, 1438, 1377
628, 549, 406, 320
91, 120, 130, 164
609, 666, 816, 925
1615, 1817, 2010, 2168
2892, 2963, 3114, 3153
3439, 3567, 3445, 3571
3221, 3193, 3043, 3056
2333, 2133, 2053, 1847
1088, 954, 892, 733
263, 181, 152, 112
121, 179, 186, 237
730, 847, 898, 1037
1591, 1791, 1943, 2126
2612, 2722, 2652, 2862
2934, 3056, 2881, 2932
2507, 2608, 2399, 2290
1697, 1600, 1478, 1353
786, 653, 571, 519
162, 154, 136, 123
242, 266, 338, 411
791, 900, 1030, 1160
1662, 1723, 1924, 1895
2305, 2237, 2353, 2384
2354, 2388, 2380, 2301
1991, 1895, 1838, 1802
1300, 1136, 1063, 974
514, 483, 384, 360
167, 171, 178, 186
314, 357, 410, 428
785, 841, 1023, 1105
1501, 1543, 1566, 1686
1940, 1889, 1903, 1886
1896, 1872, 1755, 1707
1496, 1401, 1352, 1271
878, 839, 728, 701
356, 325, 266, 274
161, 187, 196, 214
317, 378, 386, 498
694, 799, 851, 911
1227, 1195, 1246, 1286
1397, 1368, 1408, 1384
1295, 1306, 1266, 1201
1002, 936, 771, 853
589, 513, 488, 407
231, 230, 173, 174
147, 148, 175, 190
297, 306, 352, 397
581, 594, 644, 672
854, 829, 893, 945
893, 888, 882, 886
805, 799, 754, 720
551, 613, 491, 469
295, 279, 256, 240
121, 119, 113, 106
111, 103, 122, 151
222, 227, 238, 286
405, 396, 424, 427
533, 494, 553, 525
521, 515, 534, 522
454, 417, 417, 371
286, 300, 250, 212
140, 126, 123, 92
51, 60, 48, 54
76, 92, 83, 89
148, 146, 167, 166
221, 215, 241, 251
265, 289, 278, 255
284, 266, 258, 267
194, 209, 191, 174
108, 119, 104, 83
57, 50, 30, 39
18, 20, 25, 25
32, 36, 46, 68
76, 90, 102, 104
115, 126, 143, 118
143, 141, 116, 149
112, 128, 112, 112
74, 83, 68, 63
34, 41, 32, 26
15, 8, 19, 4
12, 10, 15, 10
16, 28, 25, 24
41, 40, 45, 65
67, 57, 59, 53
60, 45, 55, 51
65, 52, 49, 32
30, 32, 26, 27
20, 6, 11, 4
5, 5, 4, 4
7, 4, 6, 5
7, 8, 21, 16
18, 17, 18, 22
23, 28, 25, 24
23, 25, 23, 19
14, 12, 18, 14
13, 14, 12, 13
15, 4, 9, 9
3, 7, 8, 4
5, 9, 10, 5
11, 5, 15, 7
7, 6, 14, 7
7, 5, 6, 14
7, 5, 2, 6
7, 5, 6, 7
6, 13, 12, 12
9, 15, 11, 17
8, 13, 11, 14
14, 11, 9, 16
12
*END

*EOF