Folder: polarization-foils-XR/20220926_XRR/20210729-1-5 2 (part 2)

File: 20210729-4_pre_2θ_ω.asc
*TYPE		=  Raw
*CLASS		=  ASCII CLASS
*SAMPLE		=  2V022501 Fe20m VSM
*COMMENT	=
*FNAME		=  20210729-4_pre_2θ_ω.asc
*DATE		=  29-Jul-21 11:21

*GROUP_COUNT	=  1
*GONIO		=  SmartLab(In-plane), 0.000000
*ATTACHMENT	=  χφZクレードル
*ASC		=  0, 0, 0.000000, 0.000000
*I_MONOCHRO	=  Ge(220)x2, 0.000000
*FILTER		=  None
*C_MONOCHRO	=  None, 0.000000
*SLIT_NAME	=  0, 入射スリット
*SLIT_NAME	=  1, 受光スリット1
*SLIT_NAME	=  2, 受光スリット2
*COUNTER	=  SC-70, 0
*POS_FORMAT	=  0
*SCAN_AXIS	=  2Theta/Omega
*MEAS_MODE	=  Continuous Scanning
*TARGET		=  29
*XRAY_CHAR	=  K-ALPHA1
*WAVE_LENGTH1	=  1.54059
*WAVE_LENGTH2	=  1.54441
*THICKNESS	=  0, 0.000000
*MU		=  0, 0.000000
*SCAN_MODE	=  2Theta/Omega
*SPEED_DIM	=  sec./step
*XUNIT		=  deg.
*YUNIT		=  counts
*SCALE_MODE	=  1
*REP_COUNT	=  0
*SE_COUNT	=  0
*STD_MATERIAL	=  Unknown, Unknown, 0.000000, 0.000000, 0.000000, 0.000000, 0.000000, 0.000000
*LATT_CONS	=  0, Unknown, Unknown, 0.000000, 0.000000, 0.000000, 0.000000, 0.000000, 0.000000
*SEC_COUNT	=  1
*TSPEC_SIZE	=  0
*EXTRA_SIZE	=  0
*MEMO		=

*BEGIN
*GROUP		=  0
*START		=  0.000000
*STOP		=  6
*STEP		=  0.004
*OFFSET		=  0.000000
*SPEED		=  0.08
*SLIT_SPEC	=  0, 0.100mm, 0.1, 0.000000
*SLIT_SPEC	=  1, 0.200mm, 0.2, 0.000000
*SLIT_SPEC	=  2, 0.200mm, 0.2, 0.000000
*KV		=  45
*MA		=  200
*LOW		=  0.000000
*HIGH		=  0.000000
*CTEMPER	=  0, 0.000000
*CTEMPER	=  1, 0.000000
*CTEMPER	=  2, 0.000000
*PAREX		=  0, 0.000000
*PAREX		=  1, 0.000000
*PAREX		=  2, 0.000000
*PAREX		=  3, 0.000000
*PAREX		=  4, 0.000000
*PAREX		=  5, 0.000000
*PAREX		=  6, 0.000000
*PAREX		=  7, 0.000000
*PAREX		=  8, 0.000000
*PAREX		=  9, 0.000000
*PAREX		=  10, 0.000000
*PAREX		=  11, 0.000000
*PAREX		=  12, 0.000000
*PAREX		=  13, 0.000000
*PAREX		=  14, 0.000000
*PAREX		=  15, 0.000000
*FULL_SCALE	=  38017756
*INDEX		=  0, 0, 0
*COUNT		=  1501
2534517, 2534517, 2475886.5, 2423119
430516, 316263, 204065, 166612
182877, 193204, 205242, 213428
267146, 281165, 281111, 294273
350881, 368269, 380415, 381966
435738, 463025, 463400, 480147
534025, 541570, 546171, 563239
631724, 631831, 643228, 658423
697481, 709091, 735362, 744778
795768, 803045, 812140, 827282
883087, 895714, 905880, 901278
956762, 969175, 992717, 992556
1039372.6, 1034771.3, 1061523.4, 1061951.4
1100260.4, 1110854.3, 1124016.3, 1137285.3
1175754.8, 1172491, 1186562.6, 1195176.9
1236589.1, 1237552.1, 1248146, 1255262
1278536.4, 1281211.6, 1292019.4, 1306251.5
1322356.3, 1331024, 1342794.9, 1333324.6
1350178.5, 1375593, 1356706, 1347824.3
1357294.5, 1362431, 1353709.8, 1354458.9
1341564.3, 1349804, 1328883.9, 1330328.4
1279231.9, 1274630.5, 1248413.5, 1250874.8
1157777.4, 1131774.4, 1127333.5, 1093625.9
971850, 939320, 905452, 881268
702082, 666020, 622628, 602992
461527, 447295, 417226, 402084
341945, 331138, 332529, 310378
268966, 256660, 251737, 231513
172070, 154146, 149277, 140020
85981.3, 80577.3, 74317.3, 66826.7
62974.4, 66612.7, 63188.5, 67736.3
75387.4, 78062.6, 84055.1, 79293.2
82396.5, 81486.9, 80684.3, 79560.7
61636.8, 59710.7, 57517, 55162.8
36008.3, 30497.4, 28357.2, 23006.8
11610.4, 11396.4, 10308, 8890
8333, 8672, 9415, 10236
15966, 17420, 18671, 19735
24508, 25041, 25584, 25576
25181, 24746, 23859, 22877
17581, 16728, 15825, 14394
8531, 7490, 6448, 5494
1894, 1399, 1126, 789
527, 764, 948, 1248
3161, 3551, 4010, 4362
6310, 6694, 6915, 7224
7685, 7718, 7596, 7710
6734, 6439, 6284, 5793
4167, 3773, 3567, 3105
1771, 1448, 1286, 1114
592, 470, 519, 485
785, 819, 884, 1016
1604, 1699, 1880, 1884
2327, 2270, 2364, 2332
2466, 2319, 2285, 2319
1867, 1894, 1742, 1722
1252, 1161, 1171, 1027
824, 787, 699, 712
749, 674, 718, 733
861, 835, 906, 935
974, 1042, 1072, 1057
1002, 1022, 1000, 963
880, 794, 756, 756
568, 580, 479, 479
344, 417, 342, 324
370, 355, 396, 426
460, 544, 543, 579
694, 743, 716, 724
783, 755, 781, 759
756, 705, 642, 629
512, 470, 403, 381
262, 212, 211, 177
101, 86, 87, 72
91, 110, 140, 141
242, 281, 297, 302
436, 460, 494, 470
551, 560, 600, 586
572, 563, 563, 547
467, 425, 407, 334
250, 237, 180, 182
85, 63, 59, 44
12, 20, 22, 32
72, 103, 91, 130
224, 237, 283, 292
410, 396, 421, 425
466, 520, 455, 449
475, 451, 449, 420
308, 333, 276, 237
152, 142, 124, 123
37, 40, 11, 8
19, 23, 26, 34
115, 107, 143, 155
236, 277, 269, 289
347, 370, 376, 384
433, 418, 405, 415
324, 334, 347, 317
227, 203, 205, 203
107, 98, 79, 68
38, 21, 23, 16
17, 40, 51, 62
118, 132, 157, 158
215, 261, 248, 266
320, 303, 314, 340
333, 338, 343, 305
290, 286, 278, 264
215, 156, 151, 123
82, 71, 50, 53
29, 23, 27, 28
34, 47, 82, 69
114, 124, 140, 162
188, 205, 219, 224
251, 291, 278, 239
245, 254, 257, 268
218, 206, 175, 171
117, 108, 102, 88
58, 36, 40, 29
29, 20, 24, 22
48, 49, 63, 78
110, 99, 124, 125
160, 175, 169, 178
197, 171, 210, 203
199, 188, 149, 145
145, 129, 121, 123
94, 90, 57, 55
35, 24, 35, 30
20, 28, 24, 26
44, 36, 56, 60
70, 93, 100, 93
96, 148, 118, 118
147, 131, 109, 138
119, 104, 113, 102
51, 75, 74, 73
44, 37, 34, 21
18, 17, 18, 18
16, 15, 13, 18
36, 31, 39, 48
63, 72, 67, 63
72, 76, 81, 73
89, 71, 79, 70
66, 61, 53, 52
50, 42, 40, 32
20, 19, 14, 8
16, 8, 10, 6
9, 12, 9, 4
12, 22, 26, 25
35, 31, 28, 40
40, 51, 37, 33
34, 42, 47, 35
22, 32, 27, 25
17, 13, 13, 9
10, 4, 3, 3
6, 1, 0.000000, 3
7, 4, 2, 9
14, 15, 9, 15
19, 25, 16, 14
18, 16, 26, 24
27, 20, 13, 20
14, 13, 12, 15
5, 6, 4, 4
4, 1, 0.000000, 1
1, 1, 3, 1
4, 2, 2, 4
7, 3, 5, 11
6, 11, 7, 10
8, 7, 8, 9
7, 4, 6, 4
4, 6, 3, 1
6, 1, 1, 2
2, 1, 0.000000, 0.000000
2, 0.000000, 1, 1
3, 0.000000, 0.000000, 4
4, 2, 1, 6
2, 4, 2, 2
2, 2, 5, 3
2, 2, 3, 3
2, 2, 1, 0.000000
2, 1, 1, 1
1, 2, 1, 3
0.000000, 0.000000, 2, 0.000000
2, 1, 4, 2
1, 1, 0.000000, 2
2, 1, 1, 2
1, 1, 2, 1
0.000000, 0.000000, 1, 0.000000
1, 0.000000, 1, 1
5, 2, 3, 1
2, 2, 2, 1
2, 2, 1, 1
2
*END

*EOF

File: 20210729-5_2θ_ω.asc
*TYPE		=  Raw
*CLASS		=  ASCII CLASS
*SAMPLE		=  2V032701 Fe1h VSM
*COMMENT	=
*FNAME		=  20210729-5_2θ_ω.asc
*DATE		=  29-Jul-21 12:07

*GROUP_COUNT	=  1
*GONIO		=  SmartLab(In-plane), 0.000000
*ATTACHMENT	=  χφZクレードル
*ASC		=  0, 0, 0.000000, 0.000000
*I_MONOCHRO	=  Ge(220)x2, 0.000000
*FILTER		=  None
*C_MONOCHRO	=  None, 0.000000
*SLIT_NAME	=  0, 入射スリット
*SLIT_NAME	=  1, 受光スリット1
*SLIT_NAME	=  2, 受光スリット2
*COUNTER	=  SC-70, 0
*POS_FORMAT	=  0
*SCAN_AXIS	=  2Theta/Omega
*MEAS_MODE	=  Continuous Scanning
*TARGET		=  29
*XRAY_CHAR	=  K-ALPHA1
*WAVE_LENGTH1	=  1.54059
*WAVE_LENGTH2	=  1.54441
*THICKNESS	=  0, 0.000000
*MU		=  0, 0.000000
*SCAN_MODE	=  2Theta/Omega
*SPEED_DIM	=  sec./step
*XUNIT		=  deg.
*YUNIT		=  counts
*SCALE_MODE	=  1
*REP_COUNT	=  0
*SE_COUNT	=  0
*STD_MATERIAL	=  Unknown, Unknown, 0.000000, 0.000000, 0.000000, 0.000000, 0.000000, 0.000000
*LATT_CONS	=  0, Unknown, Unknown, 0.000000, 0.000000, 0.000000, 0.000000, 0.000000, 0.000000
*SEC_COUNT	=  1
*TSPEC_SIZE	=  0
*EXTRA_SIZE	=  0
*MEMO		=

*BEGIN
*GROUP		=  0
*START		=  0.000000
*STOP		=  6
*STEP		=  0.004
*OFFSET		=  0.000000
*SPEED		=  0.6
*SLIT_SPEC	=  0, 0.100mm, 0.1, 0.000000
*SLIT_SPEC	=  1, 0.200mm, 0.2, 0.000000
*SLIT_SPEC	=  2, 0.200mm, 0.2, 0.000000
*KV		=  45
*MA		=  200
*LOW		=  0.000000
*HIGH		=  0.000000
*CTEMPER	=  0, 0.000000
*CTEMPER	=  1, 0.000000
*CTEMPER	=  2, 0.000000
*PAREX		=  0, 0.000000
*PAREX		=  1, 0.000000
*PAREX		=  2, 0.000000
*PAREX		=  3, 0.000000
*PAREX		=  4, 0.000000
*PAREX		=  5, 0.000000
*PAREX		=  6, 0.000000
*PAREX		=  7, 0.000000
*PAREX		=  8, 0.000000
*PAREX		=  9, 0.000000
*PAREX		=  10, 0.000000
*PAREX		=  11, 0.000000
*PAREX		=  12, 0.000000
*PAREX		=  13, 0.000000
*PAREX		=  14, 0.000000
*PAREX		=  15, 0.000000
*FULL_SCALE	=  37483380
*INDEX		=  0, 0, 0
*COUNT		=  1501
18636156, 18741690, 18439324, 18105130
5127665, 3823552.8, 3287501.5, 3271587.5
4125081.5, 4249043.5, 4526282.5, 4818597.5
5912477, 6247509, 6266773.5, 6608506
7763529, 7748452.5, 8144628, 8291204.5
9010686, 9347393, 9591966, 9511558
10476451, 10721024, 11022553, 11014177
11798152, 11981582, 12087117, 12341741
12986678, 12979977, 13124879, 13080487
13480850, 13902990, 13927280, 14157615
14482596, 14345233, 14458306, 14483433
15173599, 15109943, 15190351, 15241443
15402259, 15506956, 15437437, 15382157
15836125, 15597415, 15806810, 15624217
15819373, 15751529, 15820211, 15547998
15629243, 15538784, 15475966, 15453351
15682010, 15264058, 15396396, 15106593
14977606, 14987657, 14764860, 14654300
14472545, 13996799, 14075532, 13897965
13428920, 13326735, 13330086, 13180159
12584640, 12478267, 12011735, 12116432
11357585, 11272152, 10973973, 10687521
9880931, 9577727, 9457116, 9020737
7859013, 7592662.5, 7344739, 7049073.5
5643614, 5433381.5, 5135203, 4837024.5
3613320, 3408950.5, 3127523.8, 3058004.5
2306833.5, 2151511, 2054293.8, 1952582.3
1494372.3, 1456812.4, 1386079.8, 1318022.5
1044669.5, 995927, 954568, 917811
736164, 708396, 671906, 650344
525518, 524341, 493897, 482180
409200, 388655, 374583, 352325
284696, 284268, 272497, 275654
234188, 229373, 211021, 208185
167575, 156767, 161262, 156714
143124, 137345, 126912, 127661
97270.6, 93418.3, 92615.8, 90957.1
88710, 83680.6, 81807.9, 81722
61598, 57417, 54892, 52201
50531, 51049, 50937, 50854
42652, 39600, 36977, 34035
26611, 26518, 27280, 27770
28938, 28271, 26886, 25691
16124, 15123, 13902, 13788
15680, 16554, 16966, 17441
13235, 12129, 10809, 9544
6467, 6735, 7228, 7623
9567, 9375, 9109, 8469
4524, 3724, 3325, 3104
4076, 4498, 4964, 5205
4780, 4185, 3829, 3261
1384, 1237, 1343, 1441
2778, 2991, 3187, 3030
1733, 1374, 1143, 938
661, 813, 1042, 1239
1699, 1651, 1504, 1391
525, 445, 351, 351
723, 849, 847, 946
830, 729, 669, 549
370, 373, 424, 478
693, 679, 679, 666
428, 388, 374, 393
559, 579, 596, 633
549, 454, 442, 351
332, 373, 398, 429
705, 714, 706, 702
409, 308, 307, 225
403, 450, 546, 685
794, 775, 721, 709
282, 268, 232, 253
565, 666, 725, 827
820, 793, 655, 566
251, 222, 253, 292
738, 789, 871, 925
742, 677, 570, 475
230, 283, 295, 393
808, 851, 923, 899
648, 536, 483, 414
295, 310, 372, 449
789, 888, 862, 831
605, 477, 402, 347
280, 341, 390, 490
839, 829, 824, 854
465, 400, 330, 262
331, 383, 486, 572
772, 803, 761, 742
398, 350, 283, 243
355, 420, 455, 535
752, 741, 693, 677
328, 307, 224, 233
424, 450, 505, 532
665, 672, 652, 585
321, 282, 236, 207
382, 430, 512, 516
660, 610, 575, 516
260, 228, 208, 186
372, 389, 515, 560
576, 526, 541, 486
227, 226, 212, 247
375, 440, 482, 542
561, 541, 476, 417
228, 201, 195, 209
407, 459, 488, 471
465, 503, 403, 353
217, 193, 198, 215
363, 409, 427, 435
409, 382, 352, 328
175, 182, 187, 187
321, 384, 412, 410
413, 366, 316, 299
191, 168, 146, 204
335, 385, 361, 385
347, 309, 294, 297
164, 176, 164, 216
319, 381, 347, 355
327, 302, 275, 240
144, 160, 156, 169
286, 321, 342, 307
282, 252, 252, 196
145, 172, 190, 170
304, 273, 319, 323
270, 236, 160, 211
139, 123, 156, 175
240, 272, 243, 259
209, 208, 204, 172
108, 123, 169, 158
252, 223, 257, 241
166, 182, 167, 161
134, 111, 118, 143
211, 220, 229, 230
150, 134, 157, 115
93, 113, 123, 110
185, 193, 180, 183
143, 147, 145, 120
112, 104, 113, 124
164, 164, 156, 186
125, 121, 123, 85
80, 88, 110, 110
135, 151, 132, 157
99, 89, 91, 79
79, 64, 93, 88
120, 136, 131, 110
79, 94, 80, 68
71, 70, 84, 90
120, 99, 102, 93
64, 58, 50, 56
71, 63, 70, 72
91, 100, 67, 91
65, 58, 49, 49
52, 41, 57, 64
80, 72, 87, 71
49, 39, 39, 46
48, 37, 50, 61
72, 77, 62, 63
44, 39, 32, 37
41, 44, 41, 59
61, 63, 55, 57
30, 27, 33, 15
31, 41, 32, 37
45, 40, 33, 34
40, 24, 18, 26
30, 30, 40, 26
33, 32, 39, 18
25, 15, 16, 20
20, 18, 32, 23
32, 33, 27, 28
17, 18, 12, 16
19, 28, 28, 15
25, 27, 18, 11
20, 10, 14, 12
15, 17, 15, 16
11, 16, 22, 12
10, 18, 15, 9
13, 16, 12, 16
7, 21, 15, 17
4, 16, 10, 14
10, 16, 12, 14
13, 12, 15, 9
11, 12, 14, 2
12, 8, 7, 13
9, 8, 9, 13
10, 6, 10, 9
10, 9, 6, 6
9, 10, 5, 10
11, 6, 8, 2
9, 9, 5, 9
8, 11, 8, 4
4, 7, 9, 7
7
*END

*EOF

File: 20210729-5_pre_2θ_ω.asc
*TYPE		=  Raw
*CLASS		=  ASCII CLASS
*SAMPLE		=  2V032701 Fe1h VSM
*COMMENT	=
*FNAME		=  20210729-5_pre_2θ_ω.asc
*DATE		=  29-Jul-21 11:51

*GROUP_COUNT	=  1
*GONIO		=  SmartLab(In-plane), 0.000000
*ATTACHMENT	=  χφZクレードル
*ASC		=  0, 0, 0.000000, 0.000000
*I_MONOCHRO	=  Ge(220)x2, 0.000000
*FILTER		=  None
*C_MONOCHRO	=  None, 0.000000
*SLIT_NAME	=  0, 入射スリット
*SLIT_NAME	=  1, 受光スリット1
*SLIT_NAME	=  2, 受光スリット2
*COUNTER	=  SC-70, 0
*POS_FORMAT	=  0
*SCAN_AXIS	=  2Theta/Omega
*MEAS_MODE	=  Continuous Scanning
*TARGET		=  29
*XRAY_CHAR	=  K-ALPHA1
*WAVE_LENGTH1	=  1.54059
*WAVE_LENGTH2	=  1.54441
*THICKNESS	=  0, 0.000000
*MU		=  0, 0.000000
*SCAN_MODE	=  2Theta/Omega
*SPEED_DIM	=  sec./step
*XUNIT		=  deg.
*YUNIT		=  counts
*SCALE_MODE	=  1
*REP_COUNT	=  0
*SE_COUNT	=  0
*STD_MATERIAL	=  Unknown, Unknown, 0.000000, 0.000000, 0.000000, 0.000000, 0.000000, 0.000000
*LATT_CONS	=  0, Unknown, Unknown, 0.000000, 0.000000, 0.000000, 0.000000, 0.000000, 0.000000
*SEC_COUNT	=  1
*TSPEC_SIZE	=  0
*EXTRA_SIZE	=  0
*MEMO		=

*BEGIN
*GROUP		=  0
*START		=  0.000000
*STOP		=  6
*STEP		=  0.004
*OFFSET		=  0.000000
*SPEED		=  0.08
*SLIT_SPEC	=  0, 0.100mm, 0.1, 0.000000
*SLIT_SPEC	=  1, 0.200mm, 0.2, 0.000000
*SLIT_SPEC	=  2, 0.200mm, 0.2, 0.000000
*KV		=  45
*MA		=  200
*LOW		=  0.000000
*HIGH		=  0.000000
*CTEMPER	=  0, 0.000000
*CTEMPER	=  1, 0.000000
*CTEMPER	=  2, 0.000000
*PAREX		=  0, 0.000000
*PAREX		=  1, 0.000000
*PAREX		=  2, 0.000000
*PAREX		=  3, 0.000000
*PAREX		=  4, 0.000000
*PAREX		=  5, 0.000000
*PAREX		=  6, 0.000000
*PAREX		=  7, 0.000000
*PAREX		=  8, 0.000000
*PAREX		=  9, 0.000000
*PAREX		=  10, 0.000000
*PAREX		=  11, 0.000000
*PAREX		=  12, 0.000000
*PAREX		=  13, 0.000000
*PAREX		=  14, 0.000000
*PAREX		=  15, 0.000000
*FULL_SCALE	=  37779044
*INDEX		=  0, 0, 0
*COUNT		=  1501
2376214.5, 2518603, 2413905.5, 2454947
662526, 530188, 445593, 407064
523488, 591332, 598870, 588819
750472, 842606, 882809, 884485
1010121.5, 1007608.8, 1059538.8, 1146647
1229567.5, 1234592.9, 1291548.4, 1291548.4
1388707.6, 1500105.8, 1511831.9, 1435612.1
1623230, 1520207.8, 1604803.3, 1572975.3
1714526.3, 1728765.1, 1711176, 1715363.9
1748029.5, 1842676, 1796609.1, 1861102.8
1926434, 1924758.9, 1928109.1, 1957424.5
1936485, 2012704.8, 2011867.1, 2017730.3
1964962.6, 2035319.4, 1954074.1, 2083061.5
2072172.9, 2123265.3, 2094787.6, 2106513.8
1998465.9, 2068822.6, 2104838.5, 2143367.3
2103163.5, 2079711.1, 2026106, 2109026.5
2027781.1, 1986739.8, 1936485, 2047045.5
1957424.5, 1944860.8, 1960774.8, 1949886.3
1826762, 1829274.8, 1832625, 1886230.1
1699449.9, 1702800.1, 1694424.4, 1751379.8
1637468.9, 1587214.1, 1629093.1, 1519370.1
1511831.9, 1495080.3, 1466602.6, 1384519.8
1307462.4, 1242131.1, 1235430.5, 1155022.9
1004258.4, 1041949.5, 900399, 947303
714456, 644937, 639911, 620647
466532, 449780, 428841, 407901
303957, 276296, 267949, 256713
200213, 185125, 179935, 170411
133975, 130550, 129962, 116318
98287.2, 88228.4, 90047.6, 85767.2
67468.8, 71428.1, 64633.1, 65435.6
50240.4, 53183.2, 48795.8, 44301.5
36810.9, 37452.9, 37720.5, 36650.4
30443.9, 29427.3, 29587.8, 28464.2
20599.1, 22150.7, 21294.7, 21990.2
18780, 16853.8, 18298.4, 15569.7
11877.9, 12038.4, 12306, 11663.9
11629, 11542, 11049, 10779
8262, 7692, 7219, 6920
6545, 6641, 6664, 6764
5508, 5286, 4862, 4485
3431, 3382, 3509, 3816
3793, 3687, 3729, 3231
2138, 2004, 1842, 1729
2077, 2146, 2161, 2276
1783, 1502, 1398, 1276
833, 876, 943, 1026
1297, 1245, 1167, 1137
579, 519, 442, 371
541, 584, 624, 729
650, 546, 513, 440
171, 172, 170, 202
348, 376, 393, 376
238, 198, 184, 126
92, 145, 135, 172
220, 204, 199, 212
82, 54, 49, 59
91, 96, 122, 117
119, 109, 91, 80
56, 46, 50, 69
95, 91, 76, 100
45, 41, 57, 62
62, 77, 99, 91
71, 54, 53, 54
33, 55, 46, 59
99, 116, 112, 88
40, 45, 32, 30
44, 58, 68, 92
116, 98, 84, 77
42, 29, 29, 33
74, 86, 107, 100
117, 124, 68, 75
43, 18, 34, 34
97, 127, 110, 106
93, 95, 63, 60
33, 44, 38, 46
97, 115, 141, 134
110, 76, 57, 55
30, 45, 43, 68
113, 115, 97, 124
83, 79, 57, 57
34, 44, 60, 80
104, 109, 114, 134
72, 54, 54, 37
44, 48, 62, 75
125, 102, 104, 103
59, 44, 33, 21
36, 55, 86, 95
103, 104, 99, 87
51, 40, 32, 30
60, 56, 67, 83
94, 90, 85, 83
51, 42, 28, 25
51, 60, 78, 64
79, 77, 68, 79
36, 27, 21, 36
41, 61, 54, 73
83, 68, 71, 76
33, 24, 24, 27
52, 74, 73, 60
67, 81, 63, 51
30, 24, 23, 25
49, 55, 57, 80
65, 62, 50, 38
24, 21, 22, 27
42, 38, 62, 72
51, 54, 46, 47
19, 23, 27, 21
39, 68, 47, 60
53, 50, 36, 37
27, 20, 32, 26
47, 55, 47, 53
56, 46, 31, 37
24, 16, 34, 31
29, 46, 46, 56
39, 32, 37, 24
23, 16, 22, 34
46, 38, 38, 48
26, 30, 33, 35
19, 18, 19, 18
51, 45, 33, 41
35, 37, 26, 27
16, 26, 27, 20
26, 31, 34, 32
20, 16, 24, 18
15, 14, 13, 18
27, 34, 22, 26
27, 25, 22, 17
17, 13, 17, 23
26, 24, 34, 26
23, 25, 18, 16
11, 17, 16, 15
30, 29, 28, 27
21, 17, 15, 16
16, 14, 20, 21
22, 23, 18, 23
22, 10, 14, 9
12, 13, 14, 19
19, 22, 17, 14
13, 12, 9, 16
10, 17, 12, 7
13, 15, 17, 15
17, 9, 11, 11
6, 5, 11, 11
10, 14, 15, 14
12, 7, 15, 15
10, 8, 13, 10
15, 10, 15, 7
9, 13, 2, 3
10, 11, 3, 6
9, 11, 2, 9
6, 5, 7, 0.000000
9, 7, 7, 7
9, 5, 12, 9
5, 6, 6, 1
4, 4, 5, 4
12, 3, 9, 8
2, 5, 9, 4
4, 5, 4, 6
9, 8, 2, 7
6, 3, 6, 7
6, 5, 4, 6
3, 5, 1, 7
4, 0.000000, 2, 2
5, 3, 2, 6
5, 1, 2, 7
3, 0.000000, 3, 5
4, 3, 3, 3
2, 0.000000, 2, 3
4, 1, 0.000000, 2
3, 7, 2, 1
1, 2, 0.000000, 3
1, 1, 1, 0.000000
2, 3, 3, 1
1, 3, 2, 2
0.000000, 3, 1, 3
0.000000, 1, 1, 1
1, 1, 0.000000, 2
2, 0.000000, 0.000000, 1
0.000000, 4, 1, 1
2, 0.000000, 0.000000, 1
0.000000, 2, 0.000000, 0.000000
0.000000, 1, 1, 1
1, 0.000000, 0.000000, 0.000000
0.000000, 2, 2, 0.000000
1, 1, 1, 0.000000
0.000000, 0.000000, 1, 0.000000
2, 1, 0.000000, 0.000000
2
*END

*EOF